<Bundle xmlns="http://hl7.org/fhir">
    <id value="100"/>
    <type value="collection" />
    <entry>
        <fullUrl value="https://fhir.dguv.de/AdverseEvent/Unfallereignise-1" />
        <resource>
            <!--Hier wird das Unfallereignise beschrieben-->
            <AdverseEvent>
                <id value="Unfallereignise-1" />
                <meta>
                    <profile value="https://fhir.dguv.de/Basis/AdverseEvent/DGUV-Basis-PR-Unfallereignis" />
                </meta>
                <extension url="https://fhir.dguv.de/Basis/Extension/DGUV_Basis_EX_BeginnDerArbeitszeit">
                    <valueDateTime value="2018-08-24T08:00:00Z"/>
                </extension>
                <extension url=" https://fhir.dguv.de/Basis/Extension/DGUV-Basis-EX-Unfallhergang">
                    <valueString value="Der Versicherte ist auf dem Weg zum Sechstagerennen mit seinem Motorrad mit einer geschätzten Geschwindigkeit von 60 km/h gegen eine Leitplanke gefahren"/>
                </extension>
                <extension url=" https://fhir.dguv.de/Basis/Extension/DGUV-Basis-EX-VerhaltenDesPatienten">
                    <valueString value="Patient ist wach, ansprechbar und vollständig orientiert."/>
                </extension>
                <actuality value="actual"/>
                <!--Angabe der SAV-->
                <category>
                    <coding>
                        <system value="https://fhir.dguv.de/Basis/CodeSystem/DGUV-Basis-CS-Verletzungsartenverzeichnis"/>
                        <code value="10.1V"/>
                        <display value="Schwerste Verletzungen und Verletzungskombinationen (Polytrauma) − bei Erwachsenen mit ISS ab 25 − bei Kindern mit ISS ab 16. Verläufe mit Sepsis oder Organversagen insbesondere bei Indikation zu Organersatzverfahren (siehe auch Ziffer 11)."/>
                    </coding>
                </category>
                <!--Referenz auf Patient Rudi Farad-->
                <subject>
                    <reference value="Patient/111-222-333-444"/>
                </subject>
                <!--Aus Beispiel: "Unfalltag"-->
                <date value="2018-08-24T10:15:28Z"/>
                <!--Referenz auf den Unfallort-->
                <location>
                    <reference value="Location/Ort-123"/>
                </location>
            </AdverseEvent>
        </resource>
    </entry>
    <entry>
        <!--Hier wird der Unfallort beschrieben-->
        <fullUrl value="https://fhir.dguv.de/Location/Ort-123" />
        <resource>
            <Location>
                <id value="Ort-123" />
                <meta>
                    <profile value="https://fhir.dguv.de/StructureDefinition/Location/DGUV-Basis-PR-Unfallort" />
                </meta>
                <name value="Auf dem Weg zum Unfallbetrieb. Genauer Ort nicht bekannt."/>
                <address>
                    <line value="Auf dem Weg zur Johann-Lafer-Gasse 2 in 53757 Sankt Augustin"/>
                </address>
                <!--Referenz auf den Unfallbetrieb-->
                <managingOrganization>
                    <reference value="Oragnization/Betrieb-1"/>
                </managingOrganization>
            </Location>
        </resource>
    </entry>
    <entry>
         <!--Hier wird der Unfallbetrieb beschrieben-->
        <fullUrl value="https://fhir.dguv.de/Oragnization/Betrieb-1" />
        <resource>
            <Organization>
                <id value="Betrieb-1" />
                <meta>
                    <profile value="https://fhir.dguv.de/Basis/Organization/DGUV-Basis-PR-Unfallbetrieb" />
                </meta>
                <name value="Sankt Augustiner 6 Tage Rennen GmbH"/>
                <address>
                    <line value="Johann-Lafer-Gasse 2">
                        <extension url="http://hl7.org/fhir/StructureDefinition/iso21090-ADXP-streetName">
                            <valueString value="Johann-Lafer-Gasse"/>
                        </extension>
                        <extension url="http://hl7.org/fhir/StructureDefinition/iso21090-ADXP-houseNumber">
                            <valueString value="2"/>
                        </extension>
                    </line>
                    <city value="Sankt Augustin"/>
                    <postalCode value="53757"/>
                    <country value="DE"/>
                </address>
            </Organization>
        </resource>
    </entry>
</Bundle>