{
    "resourceType": "Bundle",
    "type": "collection",
    "entry": [
      {
        "resource": {
          "resourceType": "Organization",
          "id": "Unfallbetrieb1",
          "name": "Deutsche Gesetzliche Unfallversicherung",
          "telecom":  [
            {
                "system": "phone",
                "value": "06151/1111111"
            }
        ]
        },
        "address": [
            {
              "use": "work",
              "line": [
                "Alte Heerstraße 111"
              ],
              "city": "Sankt Augustin",
              "postalCode": "53757",
              "country": "DE"
            }],
        "fullUrl": "https://example.com/fhir/Organization/Unfallbetrieb1",
        "request": {
          "method": "POST",
          "url": "Organization"
        }
      },
      {
        "resource": {
          "resourceType": "AdverseEvent",
          "id": "Unfall1",
          "extension":  [
            {
                "url": "https://fhir.dguv.de/StructureDefinition/DGUV_PR_DiGUV_Base_Unfallhergang",
                "valueString": "Auf dem Weg zur Arbeit auf einer Banane ausgerutscht."
                
            },{
                "url": "https://fhir.dguv.de/StructureDefinition/DGUV_PR_DiGUV_Base_BeginnDerArbeitszeit",
                "valueDate": "2023-05-01T08:00:00Z"
                
            },{
              "url": "https://fhir.dguv.de/StructureDefinition/DGUV_PR_DiGUV_Base_EndeDerArbeitszeit",
              "valueDate": "2023-05-01T16:30:00Z"
              
          }
        ],
          "actuality": "actual",
          "subject": {
            "reference": "Patient/Patient1"
          },
          "date": "2023-05-01T07:50:00Z",
          "location": {
            "reference": "Location/Unfallort1"
          }
        },
        "fullUrl": "https://example.com/fhir/AdverseEvent/Unfall1",
        "request": {
          "method": "POST",
          "url": "AdverseEvent"
        }
      },
      {
        "resource": {
          "resourceType": "Location",
          "id": "Unfallort1",
          "name": "Auf dem Weg zur Arbeit",
          "address": {
            "line": [
              "Beispielstraße 123"
            ],
            "city": "Berlin",
            "postalCode": "14000",
            "country": "DE"
          },
          "managingOrganization": {
            "reference": "Organization/Unfallbetrieb1"
          }
        },
        "fullUrl": "https://example.com/fhir/Location/Unfallort1",
        "request": {
          "method": "POST",
          "url": "Location"
        }
      },
      {
        "resource": {
            "resourceType": "Patient",
            "id": "Patient1",
            "meta": {
                "profile":  [
                    "https://fhir.dguv.de/StructureDefinition/DGUV_PR_DiGUV_Base_Patient|0.1"
                ]
            },
            "extension":  [
                {
                    "url": "https://fhir.dguv.de/StructureDefinition/DGUV_PR_DiGUV_Base_Beruf",
                    "valueString": "IT Architect"
                    
                },{
                    "url": "https://fhir.dguv.de/StructureDefinition/DGUV_PR_DiGUV_Base_Beschaeftigungsbeginn",
                    "valueDate": "2022-05-01"
                    
                }
            ],
            "identifier":  [
                {
                    "type": {
                        "coding":  [
                            {
                                "system": "http://fhir.de/CodeSystem/identifier-type-de-basis",
                                "code": "GKV"
                            }
                        ]
                    },
                    "system": "http://fhir.de/sid/gkv/kvid-10",
                    "value": "A123456789"
                }
            ],
            "name":  [
                {
                    "use": "official",
                    "family": "Mustermann",
                    "given":  [
                        "Max"
                    ]
                }
            ],
            "telecom": [
                {
                   "system": "phone",
                   "value": "030 123456"
                }                
            ],
            "gender": "male",
            "birthDate": "1980-01-01",
            "address":  [
                {
                    "type": "physical",
                    "_line":  [
                             "Musterweg 14"     
                    ],
                    "_line":  [
                        {
                            "extension":  [
                                {
                                    "url": "http://hl7.org/fhir/StructureDefinition/iso21090-ADXP-streetName",
                                    "valueString": "Musterweg"
                                },
                                {
                                    "url": "http://hl7.org/fhir/StructureDefinition/iso21090-ADXP-houseNumber",
                                    "valueString": "14"
                                }
                            ]
                        }
                    ],
                    "city": "Berlin",
                    "postalCode": "14000",
                    "country": "D"
                }
            ]
        },
          "fullUrl": "https://example.com/fhir/Location/Patient1",
          "request": {
             "method": "POST",
             "url": "Patient"
          }
      }
    ]
  }
